Folder: ThroughputBudget/inputs/glass

Note: inputs/glass/BAF2 transmission.txt
3.339999914169E-01 1.000000000000E+00 2.500000000000E+01
3.499999940395E-01 1.000000000000E+00 2.500000000000E+01
3.650000095367E-01 1.000000000000E+00 2.500000000000E+01
3.700000047684E-01 1.000000000000E+00 2.500000000000E+01
3.799999952316E-01 1.000000000000E+00 2.500000000000E+01
3.899999856949E-01 1.000000000000E+00 2.500000000000E+01
4.000000059605E-01 1.000000000000E+00 2.500000000000E+01
4.199999868870E-01 1.000000000000E+00 2.500000000000E+01
4.600000083447E-01 1.000000000000E+00 2.500000000000E+01
5.000000000000E-01 1.000000000000E+00 2.500000000000E+01
6.600000262260E-01 1.000000000000E+00 2.500000000000E+01
1.059999942780E+00 1.000000000000E+00 2.500000000000E+01
1.529000043869E+00 1.000000000000E+00 2.500000000000E+01
2.325000047684E+00 1.000000000000E+00 2.500000000000E+01
2.555000047684E+00 1.000000000000E+00 2.500000000000E+01

Note: inputs/glass/S-FPM4 transmission.txt
2.800000011921E-01 2.999999932945E-02 1.000000000000E+01
2.899999916553E-01 9.000000357628E-02 1.000000000000E+01
3.000000119209E-01 2.000000029802E-01 1.000000000000E+01
3.100000023842E-01 3.700000047684E-01 1.000000000000E+01
3.199999928474E-01 5.799999833107E-01 1.000000000000E+01
3.300000131130E-01 7.500000000000E-01 1.000000000000E+01
3.400000035763E-01 8.600000143051E-01 1.000000000000E+01
3.499999940395E-01 9.340000152588E-01 1.000000000000E+01
3.600000143051E-01 9.679999947548E-01 1.000000000000E+01
3.700000047684E-01 9.840000271797E-01 1.000000000000E+01
3.799999952316E-01 9.919999837875E-01 1.000000000000E+01
3.899999856949E-01 9.950000047684E-01 1.000000000000E+01
4.000000059605E-01 9.959999918938E-01 1.000000000000E+01
4.199999868870E-01 9.950000047684E-01 1.000000000000E+01
4.399999976158E-01 9.950000047684E-01 1.000000000000E+01
4.600000083447E-01 9.959999918938E-01 1.000000000000E+01
4.799999892712E-01 9.969999790192E-01 1.000000000000E+01
5.000000000000E-01 9.980000257492E-01 1.000000000000E+01
5.500000119209E-01 9.990000128746E-01 1.000000000000E+01
6.000000238419E-01 9.980000257492E-01 1.000000000000E+01
6.499999761581E-01 9.980000257492E-01 1.000000000000E+01
6.999999880791E-01 9.969999790192E-01 1.000000000000E+01
8.000000119209E-01 9.969999790192E-01 1.000000000000E+01
8.999999761581E-01 9.969999790192E-01 1.000000000000E+01
1.000000000000E+00 9.969999790192E-01 1.000000000000E+01
1.200000047684E+00 9.980000257492E-01 1.000000000000E+01
1.399999976158E+00 9.990000128746E-01 1.000000000000E+01
1.600000023842E+00 9.980000257492E-01 1.000000000000E+01
1.799999952316E+00 9.980000257492E-01 1.000000000000E+01
2.000000000000E+00 9.980000257492E-01 1.000000000000E+01
2.200000047684E+00 9.959999918938E-01 1.000000000000E+01
2.400000095367E+00 9.950000047684E-01 1.000000000000E+01

Note: inputs/glass/S-LAH71 transmission.txt
2.399999946356E-01 0.000000000000E+00 1.000000000000E+01
2.500000000000E-01 0.000000000000E+00 1.000000000000E+01
2.599999904633E-01 0.000000000000E+00 1.000000000000E+01
2.700000107288E-01 0.000000000000E+00 1.000000000000E+01
2.800000011921E-01 0.000000000000E+00 1.000000000000E+01
2.899999916553E-01 0.000000000000E+00 1.000000000000E+01
3.000000119209E-01 0.000000000000E+00 1.000000000000E+01
3.100000023842E-01 0.000000000000E+00 1.000000000000E+01
3.199999928474E-01 0.000000000000E+00 1.000000000000E+01
3.300000131130E-01 0.000000000000E+00 1.000000000000E+01
3.400000035763E-01 0.000000000000E+00 1.000000000000E+01
3.499999940395E-01 0.000000000000E+00 1.000000000000E+01
3.600000143051E-01 9.999999776483E-03 1.000000000000E+01
3.700000047684E-01 1.099999994040E-01 1.000000000000E+01
3.799999952316E-01 2.899999916553E-01 1.000000000000E+01
3.899999856949E-01 4.900000095367E-01 1.000000000000E+01
4.000000059605E-01 6.499999761581E-01 1.000000000000E+01
4.199999868870E-01 8.299999833107E-01 1.000000000000E+01
4.399999976158E-01 9.129999876022E-01 1.000000000000E+01
4.600000083447E-01 9.449999928474E-01 1.000000000000E+01
4.799999892712E-01 9.629999995232E-01 1.000000000000E+01
5.000000000000E-01 9.760000109673E-01 1.000000000000E+01
5.500000119209E-01 9.919999837875E-01 1.000000000000E+01
6.000000238419E-01 9.950000047684E-01 1.000000000000E+01
6.499999761581E-01 9.950000047684E-01 1.000000000000E+01
6.999999880791E-01 9.969999790192E-01 1.000000000000E+01
8.000000119209E-01 9.980000257492E-01 1.000000000000E+01
8.999999761581E-01 9.990000128746E-01 1.000000000000E+01
1.000000000000E+00 9.990000128746E-01 1.000000000000E+01
1.200000047684E+00 9.990000128746E-01 1.000000000000E+01
1.399999976158E+00 9.990000128746E-01 1.000000000000E+01
1.600000023842E+00 9.980000257492E-01 1.000000000000E+01
1.799999952316E+00 9.929999709129E-01 1.000000000000E+01
2.000000000000E+00 9.890000224113E-01 1.000000000000E+01
2.200000047684E+00 9.819999933243E-01 1.000000000000E+01
2.400000095367E+00 9.559999704361E-01 1.000000000000E+01

Note: inputs/glass/S-NBH58 transmission.txt
2.800000011921E-01 0.000000000000E+00 1.000000000000E+01
2.899999916553E-01 0.000000000000E+00 1.000000000000E+01
3.000000119209E-01 0.000000000000E+00 1.000000000000E+01
3.100000023842E-01 0.000000000000E+00 1.000000000000E+01
3.199999928474E-01 0.000000000000E+00 1.000000000000E+01
3.300000131130E-01 0.000000000000E+00 1.000000000000E+01
3.400000035763E-01 0.000000000000E+00 1.000000000000E+01
3.499999940395E-01 1.400000005960E-01 1.000000000000E+01
3.600000143051E-01 4.799999892712E-01 1.000000000000E+01
3.700000047684E-01 7.300000190735E-01 1.000000000000E+01
3.799999952316E-01 8.500000238419E-01 1.000000000000E+01
3.899999856949E-01 9.070000052452E-01 1.000000000000E+01
4.000000059605E-01 9.359999895096E-01 1.000000000000E+01
4.199999868870E-01 9.660000205040E-01 1.000000000000E+01
4.399999976158E-01 9.789999723434E-01 1.000000000000E+01
4.600000083447E-01 9.850000143051E-01 1.000000000000E+01
4.799999892712E-01 9.890000224113E-01 1.000000000000E+01
5.000000000000E-01 9.919999837875E-01 1.000000000000E+01
5.500000119209E-01 9.969999790192E-01 1.000000000000E+01
6.000000238419E-01 9.980000257492E-01 1.000000000000E+01
6.499999761581E-01 9.980000257492E-01 1.000000000000E+01
6.999999880791E-01 9.990000128746E-01 1.000000000000E+01
8.000000119209E-01 9.990000128746E-01 1.000000000000E+01
8.999999761581E-01 9.990000128746E-01 1.000000000000E+01
1.000000000000E+00 9.990000128746E-01 1.000000000000E+01
1.200000047684E+00 9.990000128746E-01 1.000000000000E+01
1.399999976158E+00 9.969999790192E-01 1.000000000000E+01
1.600000023842E+00 9.959999918938E-01 1.000000000000E+01
1.799999952316E+00 9.919999837875E-01 1.000000000000E+01
2.000000000000E+00 9.869999885559E-01 1.000000000000E+01
2.200000047684E+00 9.649999737740E-01 1.000000000000E+01
2.400000095367E+00 9.459999799728E-01 1.000000000000E+01

Note: README.md
# Overview

This repo contains all files and code to compute the HISPEC throughput curves

The inputs/ folder contains all the text files with info on coatings, transmissions, etc for the computation
The Excel file 'HISPEC_allsub.xlsx' contains the latest surface to surface prescription for HISPEC's optical path
The 'gary' Excel version is Gary's throughput prescription which is now outdated but kept as a comparison to the original work he has done. 

Currently emissivities have not been carried into this and Gary's work is being used for this in specsim/

cThroughput.py contains functions that can be used to read the Excel file of choice. See calc_throughput.py for how I utilize them to compute the throughput of different optical paths in HISPEC.

File: Infrasil_Window.txt
#Wavelength (nm)	% Transmission (Unpol.)
200	77.2973
210	82.7887
220	88.8041
230	89.2956
240	87.5913
250	90.2098
260	93.3498
270	94.21508
280	94.38002
290	94.48662
300	94.5812
310	94.634
320	93.1457
330	93.2009
340	93.2602
350	93.3121
360	93.3453
370	93.3784
380	93.4326
390	93.4434
400	93.4637
410	93.50108
420	93.5384
430	93.5543
440	93.5655
450	93.58745
460	93.611
470	93.61
480	93.6243
490	93.64425
500	93.6582
510	93.6504
520	93.682
530	93.6999
540	93.70706
550	93.706
560	93.7132
570	93.7144
580	93.7168
590	93.7213
600	93.7377
610	93.74141
620	93.7514
630	93.7432
640	93.7524
650	93.7629
660	93.7793
670	93.7823
680	93.779
690	93.7819
700	93.7964
710	93.81
720	93.8293
730	93.825
740	93.8213
750	93.8398
760	93.8373
770	93.8559
780	93.8605
790	93.8775
800	93.8845
810	93.8997
820	93.9189
830	93.9803
840	93.9989
850	93.9496
860	94.2757
870	94.2218
880	94.1423
890	94.08
900	94.0093
910	94.03827
920	94.04348
930	94.06745
940	94.0806
950	94.1106
960	94.1297
970	94.16878
980	94.1836
990	94.2034
1000	94.1782
1010	94.2073
1020	94.2109
1030	94.1948
1040	94.2114
1050	94.2113
1060	94.2018
1070	94.2234
1080	94.2032
1090	94.2211
1100	94.2376
1110	94.2072
1120	94.2498
1130	94.2236
1140	94.2452
1150	94.2413
1160	94.2541
1170	94.2628
1180	94.2392
1190	94.2697
1200	94.2972
1210	94.2634
1220	94.2889
1230	94.2755
1240	94.2991
1250	94.2959
1260	94.32538
1270	94.3253
1280	94.3106
1290	94.3343
1300	94.3395
1310	94.3489
1320	94.3657
1330	94.3703
1340	94.3651
1350	94.3378
1360	94.3372
1370	94.3253
1380	94.3063
1390	94.3316
1400	94.3904
1410	94.3457
1420	94.33714
1430	94.3613
1440	94.3369
1450	94.3596
1460	94.3331
1470	94.3638
1480	94.3484
1490	94.3274
1500	94.3651
1510	94.3167
1520	94.296
1530	94.3307
1540	94.3274
1550	94.3014
1560	94.2722
1570	94.2414
1580	94.2683
1590	94.3066
1600	94.32211
1610	94.3266
1620	94.3063
1630	94.3155
1640	94.3141
1650	94.2931
1660	94.2838
1670	94.2134
1680	94.1971
1690	94.2148
1700	94.2474
1710	94.2588
1720	94.2805
1730	94.2142
1740	94.2381
1750	94.2894
1760	94.2677
1770	94.2119
1780	94.3117
1790	94.30234
1800	94.2439
1810	94.2927
1820	94.2584
1830	94.29453
1840	94.29337
1850	94.2765
1860	94.3212
1870	94.2731
1880	94.3611
1890	94.3311
1900	94.3921
1910	94.417
1920	94.3979
1930	94.3881
1940	94.29889
1950	94.377
1960	94.3433
1970	94.3689
1980	94.44458
1990	94.3677
2000.07	94.6699
2009.94	94.8377
2020.1	94.9197
2029.97	94.8832
2039.837	94.9997
2049.98	94.821
2059.84	94.7612
2069.99	94.763
2079.84	94.5483
2089.97	94.5554
2099.82	94.8709
2109.95	94.7991
2119.79	94.6332
2129.91	94.8949
2139.75	94.5514
2149.86	94.5227
2159.69	94.8916
2169.8	94.3205
2179.62	94.9707
2189.72	95.0022
2199.54	94.777
2209.63	94.8059
2219.72	94.6416
2229.53	94.3309
2239.61	94.775
2249.69	94.6054
2259.49	95.0149
2269.56	94.4195
2279.63	94.7448
2289.42	94.7322
2299.48	94.7561
2309.54	94.6545
2319.59	94.81
2329.36	94.5231
2339.41	94.6317
2349.45	94.4256
2359.49	94.6967
2369.25	94.7337
2379.28	94.3814
2389.31	94.4861
2399.34	94.5434
2409.36	94.2855
2419.38	94.7053
2429.39	94.493
2439.4	94.7584
2449.13	95.1145
2459.13	94.7482
2469.13	94.7062
2479.12	94.7787
2489.11	94.7021
2499.1	94.9331
2509.08	95.0129
2519.06	94.8179
2529.03	94.6226
2539.01	94.8468
2548.97	94.612
2558.93	94.6622
2569.17	94.52
2579.12	94.4644
2589.07	94.6522
2599.02	94.7277
2608.96	94.8577
2618.9	94.8739
2628.83	94.3263
2639.04	94.898
2648.97	94.9493
2658.89	94.7203
2668.8	94.1027
2678.99	94.5647
2688.9	94.2487
2698.81	94.1946
2708.71	93.5869
2718.88	94.1502
2728.77	93.6895
2738.65	93.5545
2748.81	93.4971
2758.69	94.1254
2768.84	93.8848
2778.71	94.1266
2788.57	94
2798.71	93.9076
2808.56	94.0479
2818.69	94.1557
2828.53	93.8798
2838.65	93.9614
2848.49	93.9333
2858.59	93.8419
2868.42	93.7691
2878.52	93.7865
2888.61	93.7441
2898.43	93.8007
2908.51	93.7376
2918.59	93.8332
2928.39	93.7363
2938.46	93.9972
2948.52	93.6541
2958.31	93.6635
2968.36	93.5772
2978.41	93.533
2988.45	93.5585
2998.22	93.4056
3008.26	93.8723
3018.28	93.5853
3028.31	93.3708
3038.33	93.6663
3048.34	93.4097
3058.35	93.2736
3068.35	93.5706
3078.08	93.4549
3088.08	93.3075
3098.06	93.4381
3108.05	93.3166
3118.02	93.5113
3128	93.7536
3138.23	93.644
3148.2	93.2063
3158.15	93.501
3168.1	93.3687
3178.05	93.432
3187.99	93.8857
3193.1	93.7092