Folder: ThroughputBudget/inputs/coatings/quoted_old

Note: inputs/coatings/quoted_old/materion_J_it0.TXT
#Wavelength (nm)	~2% slope	~1% slope
800	30.8769	30.56131
801	23.73839	24.49364
802	17.44471	16.61053
803	13.24362	11.80898
804	10.70067	9.52528
805	9.27391	8.87582
806	8.62905	9.63379
807	8.62042	12.37862
808	9.25908	19.43442
809	10.73225	38.55536
810	13.511	79.68718
811	18.63062	68.7723
812	28.27656	34.48125
813	46.08191	20.67998
814	70.30312	15.68817
815	76.02724	14.53663
816	57.43066	16.07371
817	40.1037	20.77657
818	30.15011	29.32165
819	25.21616	36.05116
820	23.46634	29.98611
821	24.20257	19.97418
822	27.55994	13.85106
823	34.29135	10.92471
824	44.65927	9.93457
825	53.49455	10.43307
826	48.83341	12.74554
827	34.11825	18.44383
828	21.96425	32.4066
829	14.68476	66.40093
830	10.55747	99.92353
831	8.18411	69.08859
832	6.80657	42.10597
833	6.04074	31.3181
834	5.69829	28.92838
835	5.70117	32.71568
836	6.04799	44.31513
837	6.81337	63.69381
838	8.18006	65.44067
839	10.52597	41.00698
840	14.62757	23.61165
841	22.0874	15.44994
842	36.13934	11.76655
843	60.85625	10.33164
844	88.66297	10.37967
845	91.35746	11.93451
846	73.87009	15.83993
847	58.90859	24.5717
848	51.36426	43.80947
849	50.25323	73.41964
850	55.37009	73.32101
851	68.02547	50.00953
852	88.00006	35.98618
853	99.40947	31.01005
854	77.98604	32.50366
855	47.05888	41.6941
856	27.7029	64.42449
857	17.53662	95.65613
858	12.11699	76.09676
859	9.08181	39.56392
860	7.31987	22.25597
861	6.30013	14.92116
862	5.76205	11.75594
863	5.58438	10.69204
864	5.72879	11.12249
865	6.22218	13.2056
866	7.16263	17.85715
867	8.74533	26.75963
868	11.29878	39.12117
869	15.26084	43.09946
870	20.80962	34.64376
871	26.72615	26.46079
872	29.97766	22.70213
873	29.32434	23.10744
874	27.19661	28.68795
875	26.21323	44.43668
876	28.0156	77.9104
877	34.93868	80.54604
878	52.94658	40.91063
879	84.41444	21.42961
880	61.00429	13.94143
881	22.51504	11.07466
882	9.12424	10.42816
883	4.43311	11.1931
884	2.47728	12.44165
885	1.53709	11.8083
886	1.03468	8.58942
887	0.744	5.59739
888	0.56521	3.90139
889	0.44972	3.1567
890	0.37181	3.10982
891	0.31668	4.02348
892	0.27494	8.42383
893	0.24003	62.53298
894	0.20722	11.50883
895	0.1739	1.96023
896	0.14007	0.69578
897	0.10798	0.34228
898	0.08029	0.20516
899	0.05841	0.14083
900	0.04217	0.1055
901	0.03058	0.08117
902	0.02245	0.0591
903	0.01676	0.03807
904	0.01276	0.02188
905	0.00991	0.01198
906	0.00786	0.00664
907	0.00637	0.00384
908	0.00527	0.00234
909	0.00444	0.00151
910	0.00382	0.00103
911	0.00335	0.00074
912	0.003	0.00055
913	0.00273	0.00044
914	0.00253	0.00036
915	0.00239	0.00031
916	0.0023	0.00029
917	0.00225	0.00027
918	0.00223	0.00027
919	0.00223	0.00027
920	0.00226	0.00027
921	0.0023	0.00026
922	0.00233	0.00023
923	0.00233	0.00018
924	0.00227	0.00013
925	0.00215	0.00009
926	0.00195	0.00006
927	0.00171	0.00004
928	0.00145	0.00003
929	0.00121	0.00002
930	0.001	0.00002
931	0.00083	0.00001
932	0.00068	0.00001
933	0.00057	0.00001
934	0.00048	0.00001
935	0.0004

Note: README.md
# Overview

This repo contains all files and code to compute the HISPEC throughput curves

The inputs/ folder contains all the text files with info on coatings, transmissions, etc for the computation
The Excel file 'HISPEC_allsub.xlsx' contains the latest surface to surface prescription for HISPEC's optical path
The 'gary' Excel version is Gary's throughput prescription which is now outdated but kept as a comparison to the original work he has done. 

Currently emissivities have not been carried into this and Gary's work is being used for this in specsim/

cThroughput.py contains functions that can be used to read the Excel file of choice. See calc_throughput.py for how I utilize them to compute the throughput of different optical paths in HISPEC.

File: materionCSDJY_HKDBS.csv
Preliminary design data,,
1551,,
Wavelength (nm),%R,%T
950,0.8254437,0.1744964
956,0.8805202,0.1194187
962,0.9716246,2.83E-02
968,0.9901631,9.82E-03
974,0.9950558,4.93E-03
980,0.9967236,3.27E-03
986,0.9972721,2.72E-03
992,0.9972026,2.79E-03
998,0.9964951,3.50E-03
1004,0.9948077,5.19E-03
1010,0.9923673,7.63E-03
1016,0.9921825,7.81E-03
1022,0.9942858,5.71E-03
1028,0.9956622,4.33E-03
1034,0.996025,3.97E-03
1040,0.9955768,4.42E-03
1046,0.9943954,5.60E-03
1052,0.9934198,6.58E-03
1058,0.9944069,5.59E-03
1064,0.9960765,3.92E-03
1070,0.997088,2.91E-03
1076,0.9974735,2.52E-03
1082,0.9973671,2.63E-03
1088,0.9966444,3.35E-03
1094,0.994711,5.28E-03
1100,0.9912233,8.77E-03
1106,0.9893948,1.06E-02
1112,0.9929455,7.05E-03
1118,0.9956864,4.31E-03
1124,0.996866,3.13E-03
1130,0.9972273,2.77E-03
1136,0.9970066,2.99E-03
1142,0.9960815,3.91E-03
1148,0.9941182,5.88E-03
1154,0.9884496,1.15E-02
1160,0.9776533,2.23E-02
1166,0.9814422,1.85E-02
1172,0.9900914,9.90E-03
1178,0.9937316,6.26E-03
1184,0.9950595,4.93E-03
1190,0.995287,4.70E-03
1196,0.9946474,5.33E-03
1202,0.9927817,7.19E-03
1208,0.9885572,0.0113913
1214,0.9811299,1.88E-02
1220,0.9789609,2.09E-02
1226,0.9861459,1.38E-02
1232,0.991511,8.45E-03
1238,0.9940815,5.89E-03
1244,0.9952266,4.74E-03
1250,0.9956036,4.36E-03
1256,0.9954087,4.54E-03
1262,0.9944812,0.0054158
1268,0.9921304,7.61E-03
1274,0.9897586,1.01E-02
1280,0.9850245,0.0148876
1286,0.979324,2.06E-02
1292,0.9792991,2.06E-02
1298,0.9845407,0.0153972
1304,0.9890238,1.09E-02
1310,0.9915303,8.42E-03
1316,0.9924411,7.49E-03
1322,0.9915623,8.30E-03
1328,0.9913064,8.54E-03
1334,0.9928278,7.10E-03
1340,0.9930049,6.96E-03
1346,0.9922734,7.70E-03
1352,0.9907166,9.26E-03
1358,0.9880356,1.19E-02
1364,0.9835241,1.65E-02
1370,0.9757478,2.42E-02
1376,0.9617589,3.82E-02
1382,0.9353926,0.0645817
1388,0.8842025,0.1157661
1394,0.78857,0.2113904
1400,0.6470179,0.3529344
1406,0.5315367,0.4684134
1412,0.5066684,0.4932857
1418,0.5272623,0.4726955
1424,0.5434993,0.4564592
1430,0.5398448,0.4601109
1436,0.5120352,0.4879139
1442,0.4486701,0.5512669
1448,0.3179843,0.6819331
1454,0.1300394,0.8698621
1460,0.0453449,0.9545662
1466,6.28E-02,0.9370781
1472,8.43E-02,0.9156708
1478,8.63E-02,0.9135928
1484,7.58E-02,0.9241059
1490,6.38E-02,0.9361607
1496,5.71E-02,0.9428698
1502,5.60E-02,0.9438941
1508,5.74E-02,0.9425032
1514,5.83E-02,0.9416904
1520,5.73E-02,0.942616
1526,5.51E-02,0.9448579
1532,5.28E-02,0.9471433
1538,5.18E-02,0.9481323
1544,5.28E-02,0.947148
1550,5.54E-02,0.9445254
1556,5.85E-02,0.9414122
1562,6.08E-02,0.9391584
1568,6.12E-02,0.9387203
1574,5.96E-02,0.9403466
1580,5.63E-02,0.9436073
1586,5.24E-02,0.9475891
1592,4.87E-02,0.9512362
1598,4.63E-02,0.9536057
1604,4.58E-02,0.9541417
1610,4.71E-02,0.9528232
1616,4.98E-02,0.9501442
1622,5.30E-02,0.9469314
1628,5.59E-02,0.9440846
1634,5.76E-02,0.9423434
1640,5.78E-02,0.9421128
1646,5.65E-02,0.9434148
1652,5.40E-02,0.9459247
1658,5.09E-02,0.9490754
1664,4.77E-02,0.9522119
1670,4.53E-02,0.9546754
1676,4.40E-02,0.9559588
1682,4.41E-02,0.955851
1688,4.55E-02,0.9544391
1694,4.78E-02,0.9521142
1700,5.06E-02,0.9493899
1706,5.31E-02,0.946815
1712,5.51E-02,0.9448755
1718,5.61E-02,0.9438989
1724,5.60E-02,0.9440104
1730,5.48E-02,0.9451385
1736,5.29E-02,0.9470431
1742,0.0506013,0.9493608
1748,0.0482913,0.9516709
1754,4.64E-02,0.9535681
1760,4.52E-02,0.9547318
1766,4.50E-02,0.9549798
1772,4.57E-02,0.9542877
1778,4.72E-02,0.9527939
1784,4.92E-02,0.9507615
1790,5.14E-02,0.9485229
1796,5.35E-02,0.9464227
1802,5.52E-02,0.9447675
1808,5.62E-02,0.9437864
1814,5.64E-02,0.9436078
1820,5.57E-02,0.9442514
1826,5.43E-02,0.945634
1832,0.0523951,0.9475698
1838,5.02E-02,0.9498114
1844,4.79E-02,0.952073
1850,4.59E-02,0.9540807
1856,4.44E-02,0.9555986
1862,4.35E-02,0.9564579
1868,0.0433865,0.9565789
1874,0.0439884,0.9559772
1880,4.52E-02,0.9547554
1886,4.69E-02,0.9530839
1892,4.88E-02,0.9511725
1898,5.07E-02,0.9492429
1904,5.25E-02,0.9475012
1910,5.38E-02,0.9461224
1916,5.47E-02,0.9452303
1922,5.51E-02,0.9448884
1928,5.49E-02,0.945099
1934,5.42E-02,0.945813
1940,5.30E-02,0.9469326
1946,5.16E-02,0.9483242
1952,5.01E-02,0.9498332
1958,4.87E-02,0.9512997
1964,4.74E-02,0.952579
1970,4.64E-02,0.9535469
1976,4.58E-02,0.954129
1982,4.57E-02,0.9542778
1988,4.60E-02,0.9540045
1994,4.66E-02,0.9533637
2000,4.75E-02,0.9524423
2006,4.86E-02,0.9512418
2012,4.98E-02,0.9499959
2018,5.09E-02,0.9488314
2024,5.17E-02,0.9478602
2030,5.23E-02,0.9471691
2036,5.26E-02,0.9468145
2042,5.25E-02,0.9468191
2048,5.21E-02,0.9471715
2054,5.13E-02,0.9478286
2060,5.04E-02,0.9487174
2066,4.92E-02,0.9497437
2072,4.81E-02,0.950811
2078,4.70E-02,0.9518155
2084,4.61E-02,0.9526607
2090,4.54E-02,0.9532661
2096,4.50E-02,0.9535745
2102,4.49E-02,0.9535561
2108,4.52E-02,0.9532105
2114,4.57E-02,0.9525649
2120,4.66E-02,0.9516704
2126,0.0475514,0.9505958
2132,4.86E-02,0.9494208
2138,4.98E-02,0.9482289
2144,5.08E-02,0.9471006
2150,5.17E-02,0.9461079
2156,5.25E-02,0.9453112
2162,5.29E-02,0.9447536
2168,5.32E-02,0.9444588
2174,5.31E-02,0.9444336
2180,5.28E-02,0.9446661
2186,5.23E-02,0.9451276
2192,5.15E-02,0.9457748
2198,5.07E-02,0.9465525
2204,4.97E-02,0.9473982
2210,4.88E-02,0.9482461
2216,4.80E-02,0.9490317
2222,4.72E-02,0.9496973
2228,4.66E-02,0.9501953
2234,4.63E-02,0.9504921
2240,4.61E-02,0.95057
2246,4.62E-02,0.9504284
2252,4.65E-02,0.9500819
2258,4.69E-02,0.9495597
2264,4.75E-02,0.9489018
2270,4.82E-02,0.9481554
2276,4.89E-02,0.947371
2282,4.96E-02,0.946599
2288,5.03E-02,0.9458861
2294,5.08E-02,0.9452727
2300,5.12E-02,0.9447907
2306,5.15E-02,0.9444624
2312,5.16E-02,0.9442995
2318,5.15E-02,0.9443029
2324,5.13E-02,0.9444635
2330,0.0509375,0.9447623
2336,5.05E-02,0.9451721
2342,4.99E-02,0.9456584
2348,4.93E-02,0.9461824
2354,4.87E-02,0.9467026
2360,4.82E-02,0.9471776
2366,4.77E-02,0.9475691
2372,4.74E-02,0.9478443
2378,4.72E-02,0.9479786
2384,4.71E-02,0.9479576
2390,4.73E-02,0.9477782
2396,4.75E-02,0.9474493
2402,4.79E-02,0.9469911
2408,4.84E-02,0.9464339
2414,4.90E-02,0.9458151
2420,4.96E-02,0.9451769
2426,5.01E-02,0.9445628
2432,0.0506236,0.944014
2438,5.10E-02,0.9435668
2444,5.13E-02,0.9432498
2450,5.14E-02,0.9430769
2456,5.14E-02,0.9430509
2462,5.12E-02,0.94316
2468,5.09E-02,0.9433765
2474,5.05E-02,0.9436563
2480,5.02E-02,0.9439386
2486,0.0499117,0.944146
2492,4.98E-02,0.9441854
2498,5.00E-02,0.9439484
2500,5.01E-02,0.9437874

File: materionFEIBlockingFilter.csv
Preliminary design data,,
2161,,
Wavelength (nm),%R,%T
940,0.7413391,0.195699
948,0.1656133,0.7370825
956,3.85E-02,0.8783354
964,7.41E-02,0.850459
972,3.43E-02,0.8898208
980,3.55E-02,0.8914754
988,3.61E-02,0.8930114
996,3.01E-02,0.9001563
1004,3.43E-02,0.8982276
1012,3.41E-02,0.9003441
1020,3.77E-02,0.8988407
1028,0.0316885,0.9062927
1036,3.43E-02,0.905799
1044,3.43E-02,0.9075006
1052,3.30E-02,0.9102136
1060,0.0333385,0.9114958
1068,3.06E-02,0.9155512
1076,3.68E-02,0.9111797
1084,3.12E-02,0.9177014
1092,4.14E-02,0.9093318
1100,3.79E-02,0.9144701
1108,3.88E-02,0.9139835
1116,4.52E-02,0.9088353
1124,3.86E-02,0.9170234
1132,3.50E-02,0.921299
1140,4.04E-02,0.9169828
1148,3.78E-02,0.9201817
1156,3.15E-02,0.9268836
1164,3.44E-02,0.9249795
1172,3.67E-02,0.923511
1180,4.40E-02,0.9171672
1188,0.036265,0.9251956
1196,3.60E-02,0.9261506
1204,4.63E-02,0.917379
1212,3.55E-02,0.9286386
1220,3.30E-02,0.9316397
1228,3.89E-02,0.9267641
1236,3.35E-02,0.9326557
1244,3.23E-02,0.9344076
1252,3.24E-02,0.9349723
1260,3.22E-02,0.9357584
1268,3.67E-02,0.931958
1276,3.46E-02,0.9346965
1284,3.16E-02,0.9381589
1292,3.41E-02,0.9364369
1300,3.22E-02,0.9388676
1308,3.38E-02,0.9379524
1316,0.0406526,0.9320586
1324,3.73E-02,0.9361783
1332,3.20E-02,0.9420638
1340,3.53E-02,0.9396372
1348,0.0346489,0.9409766
1356,0.0318037,0.944457
1364,3.64E-02,0.9406575
1372,3.76E-02,0.9401222
1380,3.26E-02,0.9457776
1388,3.42E-02,0.9449018
1396,3.82E-02,0.9416783
1404,3.45E-02,0.9456918
1412,3.22E-02,0.9480885
1420,3.63E-02,0.9441444
1428,3.65E-02,0.9441316
1436,3.23E-02,0.948368
1444,3.40E-02,0.946871
1452,3.79E-02,0.9431427
1460,3.52E-02,0.9458976
1468,3.19E-02,0.9491974
1476,3.53E-02,0.9459971
1484,3.78E-02,0.943699
1492,3.40E-02,0.9474694
1500,0.0321862,0.9494163
1508,3.58E-02,0.9460192
1516,3.67E-02,0.9452045
1524,3.30E-02,0.9489164
1532,3.26E-02,0.9494442
1540,3.61E-02,0.9460365
1548,3.61E-02,0.9461328
1556,3.27E-02,0.9495833
1564,3.29E-02,0.949419
1572,3.60E-02,0.9465026
1580,3.53E-02,0.9472245
1588,0.0323963,0.9501106
1596,3.31E-02,0.9494603
1604,3.53E-02,0.9473538
1612,3.42E-02,0.9484141
1620,3.24E-02,0.9502527
1628,3.37E-02,0.9489383
1636,3.53E-02,0.9473987
1644,0.0335918,0.9489725
1652,3.24E-02,0.9500976
1660,3.41E-02,0.9483271
1668,3.45E-02,0.9478426
1676,3.29E-02,0.9492624
1684,3.35E-02,0.9483888
1692,3.41E-02,0.9475006
1700,3.25E-02,0.9486942
1708,3.45E-02,0.9462399
1716,3.44E-02,0.9455128
1724,3.27E-02,0.9460959
1732,4.07E-02,0.9366391
1740,3.13E-02,0.9425925
1748,4.27E-02,0.9245006
1756,0.6718898,0.2945536
1764,0.9809146,8.77E-03
1772,0.9936961,5.79E-04
1780,0.9960268,6.52E-05
1788,0.9970589,1.03E-05
1796,0.9976736,2.06E-06
1804,0.9980851,4.92E-07
1812,0.9983784,1.36E-07
1820,0.9985955,4.24E-08
1828,0.9987616,1.46E-08
1836,0.9988915,5.53E-09
1844,0.9989953,2.26E-09
1852,0.9990794,9.93E-10
1860,0.9991486,4.64E-10
1868,0.9992061,2.30E-10
1876,0.9992543,1.20E-10
1884,0.9992951,6.56E-11
1892,0.99933,3.76E-11
1900,0.9993598,2.24E-11
1908,0.9993857,1.39E-11
1916,0.999408,8.99E-12
1924,0.9994274,6.00E-12
1932,0.9994444,4.15E-12
1940,0.9994591,2.95E-12
1948,0.9994722,2.17E-12
1956,0.9994836,1.64E-12
1964,0.9994937,1.28E-12
1972,0.9995025,1.02E-12
1980,0.9995103,8.37E-13
1988,0.9995171,7.05E-13
1996,0.9995231,6.07E-13
2004,0.9995295,5.36E-13
2012,0.9995366,4.83E-13
2020,0.999543,4.46E-13
2028,0.9995489,4.21E-13
2036,0.9995542,4.05E-13
2044,0.9995589,3.99E-13
2052,0.9995633,4.02E-13
2060,0.9995674,4.13E-13
2068,0.999571,4.33E-13
2076,0.9995744,4.64E-13
2084,0.9995775,5.07E-13
2092,0.9995803,5.67E-13
2100,0.9995828,6.47E-13
2108,0.9995849,7.53E-13
2116,0.9995866,8.96E-13
2124,0.9995883,1.09E-12
2132,0.9995896,1.35E-12
2140,0.9995908,1.72E-12
2148,0.9995919,2.24E-12
2156,0.9995928,2.97E-12
2164,0.9995937,4.05E-12
2172,0.9995943,5.64E-12
2180,0.9995948,8.07E-12
2188,0.9995953,1.19E-11
2196,0.9995955,1.79E-11
2204,0.9995958,2.81E-11
2212,0.9995958,4.57E-11
2220,0.9995956,7.82E-11
2228,0.9995955,1.44E-10
2236,0.9995951,2.92E-10
2244,0.9995948,6.99E-10
2252,0.9995943,2.29E-09
2260,0.9995937,1.62E-08
2268,0.9995931,3.07E-08
2276,0.9995924,6.40E-09
2284,0.9995915,3.29E-09
2292,0.9995906,2.51E-09
2300,0.9995896,2.46E-09
2308,0.9995888,3.03E-09
2316,0.999588,4.91E-09
2324,0.9995871,1.30E-08
2332,0.999586,1.03E-07
2340,0.999585,1.92E-08
2348,0.9995838,4.10E-09
2356,0.9995826,1.67E-09
2364,0.9995812,9.02E-10
2372,0.9995798,5.76E-10
2380,0.9995784,4.13E-10
2388,0.9995767,3.23E-10
2396,0.9995751,2.71E-10
2404,0.9995733,2.42E-10
2412,0.9995716,2.28E-10
2420,0.9995698,2.27E-10
2428,0.999568,2.37E-10
2436,0.9995658,2.63E-10
2444,0.9995637,3.09E-10
2452,0.9995615,3.88E-10
2460,0.9995593,5.32E-10
2468,0.9995569,8.14E-10
2476,0.9995545,1.46E-09
2484,0.9995519,3.25E-09
2492,0.9995493,7.62E-09
2500,0.9995465,5.78E-09
2508,0.9995425,2.30E-09
2516,0.9995382,1.12E-09
2524,0.9995338,6.57E-10
2532,0.9995292,4.42E-10
2540,0.9995244,3.27E-10
2548,0.9995196,2.59E-10
2556,0.9995145,2.16E-10
2564,0.9995093,1.89E-10
2572,0.9995039,1.72E-10
2580,0.9994982,1.61E-10
2588,0.9994924,1.55E-10
2596,0.9994863,1.54E-10
2604,0.99948,1.56E-10
2612,0.9994735,1.61E-10
2620,0.9994667,1.70E-10
2628,0.9994597,1.82E-10
2636,0.9994524,1.98E-10
2644,0.9994447,2.19E-10
2652,0.9994368,2.45E-10
2660,0.9994286,2.76E-10
2668,0.9994199,3.13E-10
2676,0.9994109,3.56E-10
2684,0.9994016,4.05E-10
2692,0.9993919,4.57E-10
2700,0.9993816,5.12E-10
2708,0.9993709,5.68E-10
2716,0.9993597,6.21E-10
2724,0.9993479,6.70E-10
2732,0.9993355,7.15E-10
2740,0.9993225,7.56E-10
2748,0.9993088,7.95E-10
2756,0.9992942,8.35E-10
2764,0.9992789,8.78E-10
2772,0.9992626,9.28E-10
2780,0.9992455,9.86E-10
2788,0.999227,1.06E-09
2796,0.9992074,1.14E-09
2804,0.9991864,1.25E-09
2812,0.9991639,1.39E-09
2820,0.9991395,1.56E-09
2828,0.9991133,1.78E-09
2836,0.9990846,2.05E-09
2844,0.9990533,2.39E-09
2852,0.9990188,2.84E-09
2860,0.9989805,3.43E-09
2868,0.9989378,4.20E-09
2876,0.9988897,5.22E-09
2884,0.9988348,6.63E-09
2892,0.9987714,8.56E-09
2900,0.9986971,1.13E-08
2908,0.9986083,1.53E-08
2916,0.9984999,2.11E-08
2924,0.9983634,3.01E-08
2932,0.9981861,4.44E-08
2940,0.997945,6.80E-08
2948,0.9975978,1.10E-07
2956,0.9970585,1.88E-07
2964,0.9961278,3.53E-07
2972,0.9942508,7.52E-07
2980,0.9893771,1.99E-06
2988,0.9690163,8.18E-06
2996,0.8598092,4.87E-05
3004,0.9579873,1.80E-05
3012,0.9871568,6.37E-06
3020,0.993013,3.74E-06
3028,0.9949018,2.81E-06
3036,0.9955934,2.44E-06
3044,0.9957651,2.36E-06
3052,0.9956262,2.46E-06
3060,0.9952316,2.73E-06
3068,0.9945588,3.23E-06
3076,0.9935185,4.05E-06
3084,0.9919337,5.36E-06
3092,0.9894881,7.52E-06
3100,0.9856745,1.11E-05

File: materionH+JHGapDBS.csv
Preliminary design data,,
1901,,
Wavelength (nm),%R,%T
600,0.9642592,3.57E-02
607,0.7143296,0.2854128
614,0.8675792,0.1322288
621,0.9315783,6.84E-02
628,0.9623551,3.74E-02
635,0.9943719,5.59E-03
642,0.9984389,1.53E-03
649,0.762251,0.2376137
656,0.5255976,0.4742243
663,0.9418761,5.78E-02
670,0.9906126,9.30E-03
677,0.8936238,0.1062911
684,0.8653598,0.1345805
691,0.8835934,0.1163634
698,0.9953954,4.58E-03
705,0.9590628,4.02E-02
712,0.9845217,1.54E-02
719,0.3612979,0.6375429
726,0.9084896,9.15E-02
733,0.9605986,3.94E-02
740,0.9888042,1.12E-02
747,0.9882349,1.17E-02
754,0.9246863,7.51E-02
761,0.9630914,0.0368823
768,0.7218239,0.2780437
775,0.5593505,0.4403999
782,0.964786,3.52E-02
789,0.8887163,0.1112396
796,0.9872597,1.27E-02
803,0.9751623,2.48E-02
810,0.9616807,3.83E-02
817,0.9972477,2.73E-03
824,0.9992077,7.69E-04
831,0.9994776,4.90E-04
838,0.9985324,1.42E-03
845,0.9898862,1.00E-02
852,0.9990752,8.33E-04
859,0.9993001,6.15E-04
866,0.9971681,2.77E-03
873,0.9968766,3.08E-03
880,0.9994755,4.87E-04
887,0.999415,5.48E-04
894,0.9979611,2.00E-03
901,0.9490353,5.09E-02
908,0.9093099,9.06E-02
915,0.9123875,8.75E-02
922,0.7895423,0.2103451
929,0.7077838,0.2921062
936,0.6049982,0.3948915
943,0.4723487,0.5275239
950,8.46E-02,0.9151646
957,6.19E-02,0.9379815
964,5.61E-02,0.9437757
971,5.27E-02,0.9472214
978,5.97E-02,0.9402068
985,5.15E-02,0.9484263
992,5.59E-02,0.9439396
999,6.20E-02,0.9378405
1006,4.47E-02,0.9551589
1013,0.0662647,0.9336249
1020,0.0476408,0.9522479
1027,5.53E-02,0.9445634
1034,0.0595097,0.9403833
1041,4.73E-02,0.9525672
1048,5.84E-02,0.9414485
1055,4.77E-02,0.9522086
1062,5.20E-02,0.947922
1069,0.0615604,0.9383386
1076,4.64E-02,0.953524
1083,5.61E-02,0.9437823
1090,6.32E-02,0.9366537
1097,4.88E-02,0.9511322
1104,5.71E-02,0.9427963
1111,6.26E-02,0.93733
1118,0.0502543,0.9496493
1125,5.49E-02,0.9450457
1132,5.87E-02,0.9411666
1139,5.00E-02,0.9498804
1146,5.41E-02,0.9457989
1153,5.75E-02,0.9424393
1160,5.00E-02,0.9499115
1167,5.53E-02,0.9446493
1174,0.0628521,0.937058
1181,5.63E-02,0.9435688
1188,5.70E-02,0.9428996
1195,0.0659866,0.9339256
1202,5.70E-02,0.9428872
1209,4.83E-02,0.9515831
1216,6.03E-02,0.9396471
1223,6.28E-02,0.9370968
1230,0.0505783,0.9493347
1237,5.79E-02,0.9420133
1244,7.21E-02,0.9278533
1251,5.89E-02,0.9409773
1258,5.05E-02,0.949433
1265,7.13E-02,0.9286458
1272,0.0700786,0.9298365
1279,4.47E-02,0.9551703
1286,6.35E-02,0.936408
1293,8.77E-02,0.912257
1300,0.058573,0.9413319
1307,7.04E-02,0.9294851
1314,8.22E-02,0.9176728
1321,0.3601865,0.6397043
1328,0.481988,0.5179268
1335,0.7344024,0.2655298
1342,0.9249541,7.50E-02
1349,0.9724203,0.0275534
1356,0.9858557,1.41E-02
1363,0.9903517,9.63E-03
1370,0.9914766,8.51E-03
1377,0.9902778,9.71E-03
1384,0.9856482,1.43E-02
1391,0.9756901,2.43E-02
1398,0.9738266,2.62E-02
1405,0.9825584,1.74E-02
1412,0.987702,1.23E-02
1419,0.9888756,1.11E-02
1426,0.9872054,1.28E-02
1433,0.9839547,0.0160355
1440,0.9828951,1.71E-02
1447,0.9861383,1.39E-02
1454,0.9893377,1.07E-02
1461,0.990342,9.65E-03
1468,0.9891077,1.09E-02
1475,0.984927,0.015062
1482,0.9755485,2.44E-02
1489,0.9717994,0.0281873
1496,0.9808539,1.91E-02
1503,0.9868082,1.32E-02
1510,0.9883392,1.16E-02
1517,0.9862112,1.38E-02
1524,0.9779129,2.20E-02
1531,0.9612349,3.86E-02
1538,0.9700083,2.99E-02
1545,0.9858909,1.41E-02
1552,0.9917892,8.17E-03
1559,0.9935797,6.38E-03
1566,0.991511,8.36E-03
1573,0.9773949,2.23E-02
1580,0.9816661,1.83E-02
1587,0.9793226,0.0206488
1594,0.9698315,3.01E-02
1601,0.9706436,2.93E-02
1608,0.9809318,1.90E-02
1615,0.9862779,1.37E-02
1622,0.9876999,1.23E-02
1629,0.9862297,1.37E-02
1636,0.980949,1.90E-02
1643,0.9700657,2.98E-02
1650,0.9634803,3.64E-02
1657,0.9748228,2.51E-02
1664,0.98501,1.49E-02
1671,0.989732,1.02E-02
1678,0.9915103,8.42E-03
1685,0.9911847,8.66E-03
1692,0.9894177,1.04E-02
1699,0.9881426,1.18E-02
1706,0.9830477,1.69E-02
1713,0.9722306,2.77E-02
1720,0.9596444,4.02E-02
1727,0.9636508,3.63E-02
1734,0.975446,0.0244831
1741,0.9823092,1.76E-02
1748,0.9835286,1.64E-02
1755,0.9767345,2.30E-02
1762,0.9840959,0.0157978
1769,0.9857713,1.42E-02
1776,0.9838948,1.61E-02
1783,0.9791417,2.08E-02
1790,0.9697769,3.02E-02
1797,0.9511365,0.0488292
1804,0.911996,8.80E-02
1811,0.8278565,0.1720912
1818,0.6736239,0.3263094
1825,0.5261759,0.4737523
1832,0.5070426,0.4928932
1839,0.5408398,0.4591017
1846,0.5518642,0.4480754
1853,0.5209259,0.479003
1860,0.4233719,0.576534
1867,0.216593,0.7832813
1874,5.86E-02,0.9413226
1881,0.0607104,0.9391931
1888,7.60E-02,0.9238868
1895,7.12E-02,0.9287423
1902,6.53E-02,0.9346194
1909,7.21E-02,0.9278269
1916,8.43E-02,0.9155955
1923,9.03E-02,0.9096348
1930,8.65E-02,0.9134672
1937,7.57E-02,0.9241803
1944,6.41E-02,0.9358605
1951,5.79E-02,0.9420012
1958,6.04E-02,0.9395213
1965,0.0684583,0.9314743
1972,7.56E-02,0.9243551
1979,7.69E-02,0.9230682
1986,7.14E-02,0.9285691
1993,6.14E-02,0.9384919
2000,5.13E-02,0.9486614
2007,4.49E-02,0.9548323
2014,4.50E-02,0.9544781
2021,5.06E-02,0.9487044
2028,5.79E-02,0.9411915
2035,6.30E-02,0.9359165
2042,0.0634464,0.9352583
2049,5.92E-02,0.9393153
2056,5.21E-02,0.9461731
2063,4.53E-02,0.9527449
2070,4.18E-02,0.9560403
2077,4.32E-02,0.9544901
2084,4.88E-02,0.9486566
2091,5.65E-02,0.940839
2098,6.33E-02,0.9338997
2105,6.69E-02,0.9301106
2112,6.63E-02,0.9305096
2119,6.19E-02,0.934763
2126,5.51E-02,0.9413691
2133,4.81E-02,0.9481304
2140,4.32E-02,0.952862
2147,4.17E-02,0.954167
2154,0.0438026,0.9519349
2161,0.0483147,0.9472841
2168,5.35E-02,0.9419913
2175,5.75E-02,0.9378188
2182,0.0592056,0.9359845
2189,5.81E-02,0.9369085
2196,5.47E-02,0.9401865
2203,4.99E-02,0.9447408
2210,4.53E-02,0.9491291
2217,4.23E-02,0.9519747
2224,0.041723,0.9524018
2231,4.37E-02,0.9503013
2238,4.75E-02,0.9463087
2245,5.22E-02,0.9415272
2252,0.0564684,0.9371568
2259,5.93E-02,0.9341784
2266,6.02E-02,0.9331627
2273,0.05901,0.9341971
2280,5.61E-02,0.9369078
2287,5.23E-02,0.9405645
2294,4.84E-02,0.9442608
2301,4.54E-02,0.9471469
2308,4.37E-02,0.9486512
2315,4.36E-02,0.9486146
2322,4.48E-02,0.9472861
2329,4.68E-02,0.9451955
2336,4.89E-02,0.9429675
2343,5.06E-02,0.94115
2350,5.15E-02,0.9400976
2357,5.16E-02,0.9399183
2364,5.09E-02,0.9404768
2371,4.98E-02,0.9414452
2378,4.87E-02,0.9423948
2385,4.80E-02,0.942913
2392,4.81E-02,0.9427202
2399,4.89E-02,0.9417503
2406,5.04E-02,0.9401662
2413,5.22E-02,0.9383094
2420,5.38E-02,0.9366034
2427,0.0548082,0.9354457
2434,0.0550039,0.9351149
2441,5.43E-02,0.9357088
2448,5.27E-02,0.9370975
2455,5.07E-02,0.9389101
2462,4.88E-02,0.9405439
2469,4.80E-02,0.941201
2476,4.90E-02,0.9399704
2483,5.28E-02,0.935958
2490,6.02E-02,0.9284452
2497,7.15E-02,0.9170378
2500,7.76E-02,0.9109457