Folder: ThroughputBudget/inputs/coatings/quoted_old (part 2)

File: materionJ+HDBS.csv
Preliminary design data,,
1901,,
Wavelength (nm),%R,%T
600,0.7416104,0.258259
607,0.9876697,1.23E-02
614,0.9980324,1.95E-03
621,0.941644,5.83E-02
628,0.6200584,0.3796239
635,0.9176365,8.23E-02
642,0.9965235,3.45E-03
649,0.9831848,1.68E-02
656,0.9740127,2.60E-02
663,0.6599814,0.3394695
670,0.8695065,0.1304306
677,0.2930723,0.7061785
684,0.8871392,0.112753
691,0.796634,0.2031567
698,0.6622119,0.3371411
705,0.9753719,2.46E-02
712,0.926707,7.32E-02
719,0.4053233,0.5942155
726,0.9527488,4.72E-02
733,0.6935157,0.3063118
740,0.9802734,1.97E-02
747,0.9309362,6.90E-02
754,0.9079751,9.20E-02
761,0.8929299,0.1070185
768,0.9821615,1.78E-02
775,0.6955619,0.3042218
782,0.8691039,0.1307308
789,0.8798079,0.1200683
796,0.9677961,3.22E-02
803,0.9738538,2.61E-02
810,0.920651,7.93E-02
817,0.858084,0.1418277
824,0.7895634,0.2102773
831,0.9142246,8.57E-02
838,0.6987882,0.3011221
845,0.9578059,4.21E-02
852,0.944098,5.58E-02
859,0.6796439,0.3202488
866,0.9411435,5.88E-02
873,0.9132318,8.67E-02
880,0.6834082,0.3164871
887,0.9615606,3.84E-02
894,0.9836601,1.63E-02
901,0.9834687,1.65E-02
908,0.9366032,0.0633527
915,0.7884765,0.2114361
922,0.9461471,5.38E-02
929,0.9372808,6.27E-02
936,0.7679988,0.2319139
943,0.4280079,0.5718573
950,7.01E-02,0.9297064
957,5.43E-02,0.9455457
964,5.46E-02,0.9452603
971,5.14E-02,0.9484653
978,5.56E-02,0.9442731
985,5.16E-02,0.9482653
992,5.51E-02,0.9448276
999,0.0474927,0.9523878
1006,5.15E-02,0.9483344
1013,4.59E-02,0.9539566
1020,5.24E-02,0.9474578
1027,4.92E-02,0.9506766
1034,4.80E-02,0.9519179
1041,5.54E-02,0.9444773
1048,4.81E-02,0.9517495
1055,5.61E-02,0.9438191
1062,0.0563244,0.9435675
1069,5.18E-02,0.9480775
1076,5.92E-02,0.9406662
1083,4.93E-02,0.9506295
1090,5.40E-02,0.9458696
1097,6.02E-02,0.9397356
1104,4.55E-02,0.9544033
1111,5.82E-02,0.9416917
1118,5.46E-02,0.9452721
1125,4.63E-02,0.9536321
1132,6.12E-02,0.9387308
1139,7.67E-02,0.923187
1146,5.52E-02,0.944649
1153,0.4502054,0.5496857
1160,0.6011952,0.3987176
1167,0.815821,0.1841055
1174,0.951759,4.82E-02
1181,0.9832131,1.68E-02
1188,0.9912162,8.77E-03
1195,0.9932985,6.69E-03
1202,0.9926062,7.38E-03
1209,0.988084,1.19E-02
1216,0.9764746,2.35E-02
1223,0.9759116,2.41E-02
1230,0.9841008,1.59E-02
1237,0.9854959,1.45E-02
1244,0.9807997,1.92E-02
1251,0.9737457,2.62E-02
1258,0.978184,2.18E-02
1265,0.9835346,0.0164588
1272,0.983195,1.68E-02
1279,0.9773737,2.26E-02
1286,0.9737995,2.62E-02
1293,0.9802752,1.97E-02
1300,0.984648,1.53E-02
1307,0.983547,1.64E-02
1314,0.9765307,2.35E-02
1321,0.9725357,2.75E-02
1328,0.9802183,1.98E-02
1335,0.986546,1.34E-02
1342,0.988158,1.18E-02
1349,0.9865525,1.34E-02
1356,0.9826961,1.73E-02
1363,0.9801412,1.99E-02
1370,0.979867,2.01E-02
1377,0.9818503,1.81E-02
1384,0.976661,2.33E-02
1391,0.9683653,3.16E-02
1398,0.977277,2.27E-02
1405,0.9883112,1.17E-02
1412,0.9924811,7.50E-03
1419,0.9933813,6.60E-03
1426,0.9919193,8.05E-03
1433,0.9858214,1.41E-02
1440,0.969584,3.03E-02
1447,0.9758755,2.40E-02
1454,0.9890945,1.08E-02
1461,0.9932245,6.74E-03
1468,0.9940657,5.89E-03
1475,0.9924077,7.46E-03
1482,0.9872617,1.26E-02
1489,0.9759511,2.39E-02
1496,0.9701948,2.97E-02
1503,0.9840721,1.58E-02
1510,0.9889392,1.09E-02
1517,0.9904456,9.35E-03
1524,0.9918306,8.09E-03
1531,0.9896023,1.03E-02
1538,0.9842193,1.57E-02
1545,0.9802589,1.96E-02
1552,0.984547,0.0152767
1559,0.9886118,1.11E-02
1566,0.9921427,7.74E-03
1573,0.9932289,6.70E-03
1580,0.9926955,7.25E-03
1587,0.9904269,9.51E-03
1594,0.9853008,1.46E-02
1601,0.9771846,2.27E-02
1608,0.9735622,2.62E-02
1615,0.9796511,2.02E-02
1622,0.9855044,1.44E-02
1629,0.9877566,1.22E-02
1636,0.9877177,0.0122277
1643,0.9856024,1.43E-02
1650,0.9810033,1.89E-02
1657,0.9745464,2.53E-02
1664,0.9714715,2.84E-02
1671,0.9754176,2.44E-02
1678,0.981111,1.88E-02
1685,0.9849182,1.50E-02
1692,0.9866668,1.33E-02
1699,0.9868715,1.31E-02
1706,0.9857873,1.42E-02
1713,0.9834863,1.65E-02
1720,0.9802561,1.97E-02
1727,0.9771394,0.0228407
1734,0.9756794,2.43E-02
1741,0.9762688,0.0237132
1748,0.9777114,2.23E-02
1755,0.9787234,2.13E-02
1762,0.9786134,2.14E-02
1769,0.9769482,2.30E-02
1776,0.9731306,2.68E-02
1783,0.96608,3.39E-02
1790,0.9538962,4.61E-02
1797,0.9330453,6.69E-02
1804,0.8963464,0.1036188
1811,0.8314117,0.1685454
1818,0.7276806,0.2722664
1825,0.6052508,0.3946878
1832,0.522105,0.4778306
1839,0.4936026,0.5063327
1846,0.479808,0.520124
1853,0.4412288,0.5586929
1860,0.338923,0.6609777
1867,0.1569876,0.8428876
1874,4.59E-02,0.9539627
1881,6.32E-02,0.9367376
1888,9.19E-02,0.9079927
1895,9.55E-02,0.9044231
1902,8.10E-02,0.9188974
1909,6.39E-02,0.9360188
1916,5.45E-02,0.9453903
1923,5.29E-02,0.9469813
1930,5.42E-02,0.9457399
1937,5.49E-02,0.9450659
1944,5.45E-02,0.945378
1951,5.47E-02,0.9452678
1958,5.68E-02,0.9431669
1965,6.10E-02,0.9389718
1972,6.54E-02,0.9345526
1979,6.74E-02,0.9325065
1986,6.55E-02,0.9344
1993,6.00E-02,0.9399311
2000,5.28E-02,0.9471666
2007,4.64E-02,0.9533001
2014,4.36E-02,0.9557961
2021,4.55E-02,0.9536799
2028,5.09E-02,0.9480339
2035,5.74E-02,0.9413933
2042,6.21E-02,0.9364619
2049,6.34E-02,0.9349862
2056,6.09E-02,0.9372612
2063,5.57E-02,0.9422171
2070,4.98E-02,0.9479169
2077,4.52E-02,0.952261
2084,4.35E-02,0.9537553
2091,4.50E-02,0.9520714
2098,4.87E-02,0.9481034
2105,5.32E-02,0.9434979
2112,5.65E-02,0.9399477
2119,5.77E-02,0.9386043
2126,5.63E-02,0.939788
2133,0.0528993,0.9429917
2140,4.86E-02,0.9471062
2147,4.47E-02,0.9507986
2154,4.23E-02,0.952952
2161,4.20E-02,0.9530319
2168,0.0436839,0.9512137
2175,4.65E-02,0.9482732
2182,4.93E-02,0.9452556
2189,5.13E-02,0.9431131
2196,5.18E-02,0.9424328
2203,5.07E-02,0.9433102
2210,4.85E-02,0.9453666
2217,4.58E-02,0.9478853
2224,4.34E-02,0.9500328
2231,4.22E-02,0.9511099
2238,4.24E-02,0.9507582
2245,4.39E-02,0.9490516
2252,4.64E-02,0.9464443
2259,4.91E-02,0.9436104
2266,5.13E-02,0.9412409
2273,5.25E-02,0.9398646
2280,5.25E-02,0.9397328
2287,5.12E-02,0.9407793
2294,4.92E-02,0.9426553
2301,4.68E-02,0.9448288
2308,0.0447327,0.9467289
2315,4.34E-02,0.9478961
2322,4.30E-02,0.948096
2329,4.36E-02,0.9473611
2336,4.49E-02,0.9459526
2343,4.64E-02,0.9442676
2350,4.78E-02,0.9427261
2357,4.88E-02,0.9416695
2364,4.90E-02,0.9412879
2371,4.85E-02,0.9415872
2378,4.76E-02,0.9423948
2385,4.64E-02,0.9434062
2392,4.53E-02,0.9442642
2399,4.48E-02,0.9446513
2406,4.49E-02,0.9443707
2413,4.57E-02,0.9433895
2420,4.72E-02,0.9418359
2427,4.89E-02,0.9399564
2434,5.07E-02,0.9380543
2441,5.21E-02,0.9364305
2448,5.31E-02,0.9353278
2455,5.33E-02,0.9349005
2462,5.28E-02,0.9352006
2469,5.16E-02,0.9361777
2476,4.99E-02,0.9376872
2483,4.78E-02,0.9394913
2490,0.045831,0.9412243
2497,4.44E-02,0.9422996
2500,4.43E-02,0.9423391

File: materionJ+JHGapDBS.csv
Preliminary design data,,
1901,,
Wavelength (nm),%R,%T
600,0.9693202,3.06E-02
606.4,0.5635706,0.4362679
612.8,0.9510987,4.89E-02
619.2,0.9823264,1.76E-02
625.6,0.6252182,0.3746195
632,0.9494041,5.05E-02
638.4,0.9957772,4.21E-03
644.8,0.9290106,7.08E-02
651.2,0.9984021,1.59E-03
657.6,0.9989472,1.04E-03
664,0.9865457,0.0134163
670.4,0.9829618,1.70E-02
676.8,0.9727254,2.73E-02
683.2,0.5740519,0.4258436
689.6,0.7717336,0.2282295
696,0.8736112,0.1263626
702.4,0.7031521,0.2967938
708.8,0.8952124,0.1047297
715.2,0.8832942,0.1165786
721.6,0.8681687,0.1317669
728,0.9325311,6.74E-02
734.4,0.9389641,6.10E-02
740.8,0.6043019,0.3954971
747.2,0.9208797,7.91E-02
753.6,0.9175228,0.0824544
760,0.8531207,0.1468523
766.4,0.8538671,0.1460847
772.8,0.6013467,0.3983661
779.2,0.6822463,0.3175449
785.6,0.6548147,0.3450834
792,0.9528014,4.72E-02
798.4,0.7027172,0.2953815
804.8,0.9899496,1.00E-02
811.2,0.9979528,2.04E-03
817.6,0.9982925,1.70E-03
824,0.9918655,8.08E-03
830.4,0.9932491,6.61E-03
836.8,0.9990306,9.57E-04
843.2,0.9992552,7.34E-04
849.6,0.9982342,1.75E-03
856,0.9079317,0.0914264
862.4,0.9977505,2.22E-03
868.8,0.9989888,9.98E-04
875.2,0.9987816,1.20E-03
881.6,0.9965373,3.44E-03
888,0.9435879,5.62E-02
894.4,0.980083,1.98E-02
900.8,0.9913236,8.65E-03
907.2,0.9888546,1.11E-02
913.6,0.9733988,2.66E-02
920,0.9081895,9.18E-02
926.4,0.7759895,0.2239599
932.8,0.6600147,0.3399173
939.2,0.5200077,0.479891
945.6,0.1067438,0.8930653
952,6.09E-02,0.9389712
958.4,5.13E-02,0.9485763
964.8,5.62E-02,0.9436529
971.2,5.35E-02,0.9464031
977.6,5.68E-02,0.9431003
984,4.96E-02,0.950298
990.4,5.67E-02,0.9432397
996.8,6.01E-02,0.9398353
1003.2,4.70E-02,0.9529512
1009.6,5.12E-02,0.9486746
1016,6.47E-02,0.9352179
1022.4,5.56E-02,0.9443671
1028.8,4.53E-02,0.9546033
1035.2,0.0596217,0.940298
1041.6,6.84E-02,0.9315355
1048,5.40E-02,0.9459382
1054.4,4.80E-02,0.951956
1060.8,6.45E-02,0.9354185
1067.2,6.94E-02,0.9304795
1073.6,5.34E-02,0.9465375
1080,5.11E-02,0.9488387
1086.4,7.12E-02,0.9286826
1092.8,7.40E-02,0.9259373
1099.2,5.23E-02,0.9475952
1105.6,5.19E-02,0.9480609
1112,8.21E-02,0.9178218
1118.4,8.51E-02,0.9148691
1124.8,5.49E-02,0.9450035
1131.2,6.92E-02,0.9307295
1137.6,0.1104011,0.889519
1144,8.40E-02,0.9158551
1150.4,0.3141154,0.6857865
1156.8,0.5528494,0.4470772
1163.2,0.7870399,0.2129065
1169.6,0.9060389,9.39E-02
1176,0.9516049,4.84E-02
1182.4,0.9700351,2.99E-02
1188.8,0.9780675,2.19E-02
1195.2,0.9813948,1.86E-02
1201.6,0.9820449,1.79E-02
1208,0.9807119,1.92E-02
1214.4,0.9776677,2.22E-02
1220.8,0.973652,2.62E-02
1227.2,0.9713163,2.85E-02
1233.6,0.9720346,2.79E-02
1240,0.9733654,2.65E-02
1246.4,0.9739048,2.60E-02
1252.8,0.9734494,2.65E-02
1259.2,0.9725473,2.73E-02
1265.6,0.9725357,2.73E-02
1272,0.974665,2.52E-02
1278.4,0.9774945,2.24E-02
1284.8,0.9792352,2.07E-02
1291.2,0.9792625,2.07E-02
1297.6,0.9771857,2.27E-02
1304,0.9726259,2.73E-02
1310.4,0.9668958,3.30E-02
1316.8,0.9652198,3.47E-02
1323.2,0.9705494,0.0293646
1329.6,0.9783607,2.16E-02
1336,0.9841313,1.58E-02
1342.4,0.9874626,1.25E-02
1348.8,0.9890754,1.09E-02
1355.2,0.9894627,1.05E-02
1361.6,0.9887657,1.12E-02
1368,0.9868022,1.32E-02
1374.4,0.9830567,1.69E-02
1380.8,0.9768457,2.31E-02
1387.2,0.9686308,3.14E-02
1393.6,0.9627653,3.72E-02
1400,0.9641196,0.0358671
1406.4,0.969718,3.03E-02
1412.8,0.9746978,2.53E-02
1419.2,0.9775761,2.24E-02
1425.6,0.9783394,2.16E-02
1432,0.9768654,2.31E-02
1438.4,0.9725187,2.75E-02
1444.8,0.9656154,3.44E-02
1451.2,0.9570455,4.29E-02
1457.6,0.9426839,5.73E-02
1464,0.9160441,8.39E-02
1470.4,0.8672438,0.1327254
1476.8,0.7827657,0.2171956
1483.2,0.6618555,0.3380973
1489.6,0.5487642,0.4511831
1496,0.4947786,0.5051672
1502.4,0.4808648,0.5190789
1508.8,0.4571289,0.5428067
1515.2,0.3799415,0.6199762
1521.6,0.2291511,0.7707435
1528,0.1163488,0.8835459
1534.4,0.112348,0.8875656
1540.8,0.1288137,0.871113
1547.2,0.1272298,0.8727025
1553.6,0.1091155,0.8908185
1560,8.85E-02,0.9114341
1566.4,7.93E-02,0.9206583
1572.8,0.0823042,0.917634
1579.2,8.79E-02,0.9120317
1585.6,8.81E-02,0.9118805
1592,8.10E-02,0.9189197
1598.4,6.94E-02,0.9304985
1604.8,5.82E-02,0.9417812
1611.2,5.24E-02,0.9475886
1617.6,5.49E-02,0.9450226
1624,6.44E-02,0.9355801
1630.4,7.57E-02,0.9242573
1636.8,8.36E-02,0.9163147
1643.2,8.52E-02,0.9147846
1649.6,8.00E-02,0.9199435
1656,0.0700302,0.9299168
1662.4,5.85E-02,0.9414601
1668.8,4.91E-02,0.9508346
1675.2,4.50E-02,0.9549428
1681.6,4.73E-02,0.9526483
1688,5.47E-02,0.9452534
1694.4,6.41E-02,0.9358472
1700.8,7.22E-02,0.9277487
1707.2,7.66E-02,0.9233659
1713.6,7.62E-02,0.9237193
1720,7.15E-02,0.9284242
1726.4,6.40E-02,0.9359701
1732.8,5.57E-02,0.9442081
1739.2,0.0491398,0.950811
1745.6,4.60E-02,0.9539374
1752,0.0471265,0.9528247
1758.4,5.19E-02,0.9480276
1764.8,5.88E-02,0.9411337
1771.2,6.58E-02,0.9341757
1777.6,7.10E-02,0.9289813
1784,7.32E-02,0.9267501
1790.4,7.21E-02,0.9278951
1796.8,6.79E-02,0.9320906
1803.2,6.16E-02,0.9383821
1809.6,5.46E-02,0.9453792
1816,4.84E-02,0.9515373
1822.4,4.44E-02,0.9555147
1828.8,0.0434562,0.9564979
1835.2,4.55E-02,0.9544258
1841.6,5.00E-02,0.9499795
1848,5.56E-02,0.9443291
1854.4,6.12E-02,0.9387496
1860.8,0.0655897,0.9343668
1867.2,6.80E-02,0.9319606
1873.6,6.81E-02,0.9318849
1880,6.59E-02,0.9340648
1886.4,6.19E-02,0.9380405
1892.8,5.69E-02,0.9430568
1899.2,5.18E-02,0.9481856
1905.6,4.75E-02,0.9525039
1912,4.47E-02,0.9552394
1918.4,4.40E-02,0.9559706
1924.8,4.53E-02,0.9547009
1931.2,4.81E-02,0.9518247
1937.6,5.20E-02,0.9479951
1944,5.60E-02,0.9439706
1950.4,5.95E-02,0.9404643
1956.8,6.19E-02,0.9380349
1963.2,6.29E-02,0.9370264
1969.6,6.24E-02,0.9375494
1976,6.05E-02,0.9394786
1982.4,5.75E-02,0.942468
1988.8,5.39E-02,0.9460241
1995.2,0.0503701,0.9495894
2001.6,4.73E-02,0.9525985
2008,4.53E-02,0.9545289
2014.4,4.46E-02,0.9550842
2020.8,0.0453187,0.9542231
2027.2,4.73E-02,0.9521512
2033.6,5.00E-02,0.9492608
2040,5.31E-02,0.9460416
2046.4,5.61E-02,0.9429895
2052.8,0.0584086,0.9405317
2059.2,5.98E-02,0.9389769
2065.6,6.02E-02,0.9384891
2072,5.95E-02,0.9390965
2078.4,0.0577937,0.9406762
2084.8,5.54E-02,0.9429815
2091.2,5.26E-02,0.9456731
2097.6,4.97E-02,0.9483624
2104,4.73E-02,0.9506644
2110.4,4.56E-02,0.9522565
2116.8,4.48E-02,0.9529266
2123.2,4.50E-02,0.9526047
2129.6,4.62E-02,0.9513662
2136,4.80E-02,0.94941
2142.4,5.03E-02,0.9470164
2148.8,5.27E-02,0.9444977
2155.2,0.0549776,0.9421562
2161.6,5.68E-02,0.9402452
2168,5.80E-02,0.9389421
2174.4,5.85E-02,0.9383495
2180.8,5.82E-02,0.9384887
2187.2,5.73E-02,0.9393041
2193.6,5.58E-02,0.9406736
2200,5.40E-02,0.9424223
2206.4,5.19E-02,0.9443421
2212.8,0.0499632,0.9462145
2219.2,4.82E-02,0.9478366
2225.6,4.69E-02,0.9490461
2232,4.61E-02,0.9497409
2238.4,4.59E-02,0.94989
2244.8,4.61E-02,0.9495327
2251.2,4.68E-02,0.9487679
2257.6,4.77E-02,0.947734
2264,4.88E-02,0.9465871
2270.4,4.98E-02,0.9454785
2276.8,5.07E-02,0.944537
2283.2,5.13E-02,0.9438571
2289.6,5.15E-02,0.9434921
2296,0.0514857,0.9434533
2302.4,5.11E-02,0.9437121
2308.8,0.0505372,0.9442057
2315.2,4.98E-02,0.9448452
2321.6,0.0490154,0.9455258
2328,4.83E-02,0.9461383
2334.4,4.78E-02,0.946583
2340.8,4.75E-02,0.9467812
2347.2,4.75E-02,0.9466874
2353.6,4.78E-02,0.9462959
2360,4.83E-02,0.9456422
2366.4,4.91E-02,0.9447991
2372.8,0.0499463,0.943866
2379.2,5.08E-02,0.9429563
2385.6,0.051473,0.9421815
2392,0.0519375,0.9416372
2398.4,5.21E-02,0.9413917
2404.8,5.19E-02,0.9414783
2411.2,5.14E-02,0.9418916
2417.6,0.0506401,0.9425887
2424,4.96E-02,0.9434926
2430.4,4.85E-02,0.9444988
2436.8,0.0474532,0.9454849
2443.2,0.0465152,0.9463235
2449.6,4.59E-02,0.9468843
2456,0.0455886,0.9470549
2462.4,4.58E-02,0.9467493
2468.8,4.65E-02,0.9459164
2475.2,4.78E-02,0.9445442
2481.6,4.96E-02,0.9426598
2488,5.19E-02,0.9403211
2494.4,0.0545439,0.9376017
2500,0.0571185,0.9349641

File: materionJHGapDBS.csv
Preliminary design data,,
1901,,
Wavelength (nm),%R,%T
600,0.9338067,6.61E-02
607,0.6342344,0.3656435
614,0.9960195,3.96E-03
621,0.9021966,9.77E-02
628,0.9990392,9.51E-04
635,0.9983069,1.68E-03
642,0.999338,6.51E-04
649,0.9564398,4.35E-02
656,0.9804111,1.95E-02
663,0.9980046,1.97E-03
670,0.9848309,1.51E-02
677,0.923559,7.63E-02
684,0.9391512,6.08E-02
691,0.6411187,0.3587714
698,0.9107373,8.92E-02
705,0.9799766,2.00E-02
712,0.8929285,0.1069926
719,0.6460074,0.3535781
726,0.9733218,2.66E-02
733,0.9446406,5.52E-02
740,0.9594399,0.0404374
747,0.9718318,0.0281184
754,0.959524,4.04E-02
761,0.9609743,0.0388243
768,0.993902,6.05E-03
775,0.9987882,1.18E-03
782,0.9983456,1.62E-03
789,0.9787255,2.12E-02
796,0.9676306,3.23E-02
803,0.9840289,1.58E-02
810,0.9736708,2.61E-02
817,0.9582055,4.17E-02
824,0.99715,2.82E-03
831,0.9956548,4.31E-03
838,0.9936478,6.31E-03
845,0.9995899,3.94E-04
852,0.999794,1.90E-04
859,0.9997491,2.31E-04
866,0.999292,6.73E-04
873,0.9932446,6.62E-03
880,0.9879407,1.20E-02
887,0.9851601,1.47E-02
894,0.9677715,3.22E-02
901,0.980745,1.92E-02
908,0.9772912,2.27E-02
915,0.9430341,5.69E-02
922,0.8191283,0.1808118
929,0.5903473,0.4095638
936,0.4921109,0.5077916
943,0.4170895,0.582783
950,7.85E-02,0.9213462
957,5.66E-02,0.9432326
964,5.13E-02,0.9485227
971,4.83E-02,0.9515322
978,4.67E-02,0.9531572
985,5.25E-02,0.9473719
992,5.06E-02,0.9493017
999,0.051486,0.9483963
1006,5.50E-02,0.944883
1013,4.78E-02,0.9520485
1020,5.01E-02,0.9497412
1027,0.0534972,0.9463927
1034,4.83E-02,0.9515564
1041,5.15E-02,0.9484192
1048,5.33E-02,0.9465746
1055,4.73E-02,0.9525846
1062,5.19E-02,0.9479856
1069,5.78E-02,0.9421118
1076,4.96E-02,0.9502974
1083,4.67E-02,0.9531525
1090,0.056704,0.9431963
1097,5.70E-02,0.9429148
1104,4.83E-02,0.9515615
1111,5.08E-02,0.9490978
1118,5.74E-02,0.9424571
1125,5.29E-02,0.947014
1132,4.86E-02,0.9512609
1139,5.56E-02,0.9443274
1146,5.89E-02,0.9409962
1153,5.09E-02,0.9490404
1160,4.78E-02,0.9521345
1167,5.62E-02,0.9436602
1174,5.91E-02,0.9407923
1181,5.09E-02,0.9490052
1188,4.85E-02,0.9513679
1195,5.78E-02,0.942069
1202,6.14E-02,0.9385445
1209,5.33E-02,0.9466462
1216,5.15E-02,0.9483953
1223,6.44E-02,0.9354791
1230,7.14E-02,0.9284741
1237,6.20E-02,0.9379078
1244,0.0535126,0.9463977
1251,6.39E-02,0.9360232
1258,7.30E-02,0.9268926
1265,6.29E-02,0.9369991
1272,5.53E-02,0.9445885
1279,7.46E-02,0.9253163
1286,8.68E-02,0.9131023
1293,5.88E-02,0.9411009
1300,5.09E-02,0.9490293
1307,9.57E-02,0.904159
1314,0.1273445,0.8725145
1321,0.399874,0.6000059
1328,0.6087783,0.3911269
1335,0.8758196,0.1241198
1342,0.9621451,3.78E-02
1349,0.985452,1.45E-02
1356,0.9931298,6.84E-03
1363,0.9961765,3.80E-03
1370,0.997566,2.41E-03
1377,0.9982633,1.72E-03
1384,0.9986298,1.35E-03
1391,0.9988167,1.16E-03
1398,0.998889,1.09E-03
1405,0.998871,1.11E-03
1412,0.9987603,1.22E-03
1419,0.9985287,1.45E-03
1426,0.9981094,1.87E-03
1433,0.9973594,2.62E-03
1440,0.9959659,4.01E-03
1447,0.9932037,6.77E-03
1454,0.9871988,1.28E-02
1461,0.9725909,2.74E-02
1468,0.9324899,6.75E-02
1475,0.8187329,0.1812005
1482,0.6048096,0.3951059
1489,0.5025076,0.4974144
1496,0.5157597,0.4841698
1503,0.5150415,0.4848837
1510,0.4779209,0.5219868
1517,0.3636746,0.6361954
1524,0.1384936,0.8613521
1531,7.29E-02,0.9269915
1538,7.39E-02,0.9259494
1545,7.81E-02,0.9218
1552,9.28E-02,0.9071434
1559,0.1018147,0.8980994
1566,9.49E-02,0.9049706
1573,7.63E-02,0.9236408
1580,5.87E-02,0.9411785
1587,5.55E-02,0.9444474
1594,6.57E-02,0.934195
1601,7.67E-02,0.9232244
1608,0.0786868,0.9212382
1615,0.0710623,0.9288633
1622,0.0594468,0.9404789
1629,5.14E-02,0.948508
1636,5.17E-02,0.9481885
1643,5.88E-02,0.9411064
1650,6.65E-02,0.9334524
1657,0.0690644,0.9308659
1664,6.48E-02,0.9351584
1671,5.58E-02,0.9441036
1678,4.69E-02,0.9529977
1685,4.26E-02,0.9572904
1692,4.46E-02,0.9552967
1699,5.09E-02,0.9489855
1706,0.0575669,0.9423662
1713,6.09E-02,0.939041
1720,5.94E-02,0.9405051
1727,5.42E-02,0.9457749
1734,4.79E-02,0.9520517
1741,0.0439184,0.9560159
1748,4.45E-02,0.9554667
1755,4.95E-02,0.9504404
1762,5.69E-02,0.9430463
1769,6.37E-02,0.9362489
1776,6.74E-02,0.9325238
1783,6.69E-02,0.9330239
1790,6.26E-02,0.9373854
1797,5.59E-02,0.9439914
1804,4.94E-02,0.9505262
1811,4.51E-02,0.9548311
1818,4.42E-02,0.9557472
1825,0.0464326,0.9535066
1832,5.05E-02,0.9494869
1839,5.44E-02,0.9455175
1846,5.68E-02,0.943141
1853,5.68E-02,0.9431286
1860,5.46E-02,0.945346
1867,5.11E-02,0.9488645
1874,4.76E-02,0.9523088
1881,4.56E-02,0.9543609
1888,4.57E-02,0.9542484
1895,4.79E-02,0.9519997
1902,5.16E-02,0.9483531
1909,5.55E-02,0.9444267
1916,0.0586046,0.9413388
1923,6.01E-02,0.9398853
1930,5.96E-02,0.9403749
1937,0.0573387,0.9426056
1944,5.40E-02,0.9459308
1951,5.05E-02,0.9494368
1958,4.77E-02,0.9522037
1965,4.64E-02,0.95358
1972,0.0465861,0.9533587
1979,4.81E-02,0.9518087
1986,5.04E-02,0.9495263
1993,5.27E-02,0.9472303
2000,5.44E-02,0.9455602
2007,5.50E-02,0.94478
2014,5.44E-02,0.9452184
2021,5.27E-02,0.9466376
2028,5.07E-02,0.948523
2035,4.88E-02,0.9502325
2042,4.76E-02,0.9511911
2049,4.76E-02,0.9510681
2056,4.86E-02,0.9498655
2063,5.04E-02,0.9478818
2070,5.25E-02,0.9456058
2077,5.44E-02,0.9435537
2084,0.0556513,0.9421457
2091,5.60E-02,0.9416343
2098,5.54E-02,0.9420732
2105,5.40E-02,0.9433156
2112,5.21E-02,0.9450425
2119,5.01E-02,0.9468239
2126,4.86E-02,0.9482148
2133,4.77E-02,0.948867
2140,4.78E-02,0.9486217
2147,4.87E-02,0.9475468
2154,5.02E-02,0.9459056
2161,5.19E-02,0.9440737
2168,5.34E-02,0.9424284
2175,5.44E-02,0.9412811
2182,5.47E-02,0.9408227
2189,5.43E-02,0.9411064
2196,5.32E-02,0.9420517
2203,5.16E-02,0.9434658
2210,4.98E-02,0.9450775
2217,0.0481415,0.9465863
2224,4.68E-02,0.9477227
2231,4.61E-02,0.948306
2238,4.60E-02,0.9482828
2245,4.64E-02,0.9477311
2252,4.72E-02,0.9468292
2259,4.80E-02,0.9458007
2266,4.88E-02,0.9448559
2273,4.94E-02,0.9441474
2280,4.97E-02,0.9437465
2287,4.96E-02,0.9436406
2294,4.94E-02,0.9437452
2301,4.90E-02,0.9439251
2308,4.88E-02,0.9440213
2315,4.88E-02,0.9438845
2322,4.91E-02,0.9434094
2329,4.98E-02,0.9425677
2336,5.08E-02,0.9414238
2343,0.0519871,0.9401299
2350,5.31E-02,0.9388951
2357,5.39E-02,0.9379355
2364,5.43E-02,0.9374216
2371,5.42E-02,0.9374352
2378,5.35E-02,0.9379485
2385,5.25E-02,0.9388287
2392,5.13E-02,0.9398649
2399,5.01E-02,0.9408111
2406,4.93E-02,0.9414386
2413,4.90E-02,0.941589
2420,0.0492333,0.9412217
2427,4.98E-02,0.9404446
2434,5.06E-02,0.9395171
2441,0.0511419,0.9388155
2448,5.10E-02,0.9387416
2455,4.99E-02,0.9395915
2462,4.79E-02,0.9413847
2469,4.53E-02,0.9436604
2476,0.0432624,0.9452664
2483,4.39E-02,0.9441841
2490,5.01E-02,0.9374779
2497,6.57E-02,0.9215226
2500,7.61E-02,0.9109281